USUBJID,AESTDTC,AEENDTC,AETERM,CMSTDTC,CMENDTC,CMTRT
101,2004-01-01,2004-01-02,Headache,2004-01-01,2004-01-01,Acetaminophen
101,2004-01-01,2004-01-02,Headache,2003-10-20,2004-03-20,Tylenol w/ Codeine
101,2004-01-15,2004-02-03,Back Pain,2003-10-20,2004-03-20,Tylenol w/ Codeine
102,2004-01-03,2004-01-10,Abdominal Pain,2004-01-09,2004-03-10,Esomeprazole
102,2004-01-03,2004-01-10,Abdominal Pain,2004-01-06,2004-01-08,Simethicone
102,2003-11-03,2003-12-10,Rash,2003-12-07,2003-12-18,Hydrocortizone Cream
102,2004-04-04,2004-04-04,Constipation,,,
